File: ThermaKin2D App/ThermaKin/CC_PMMA.txt
ThermaKin Program Version 7

Components file:  CC_PMMA.cmp
Conditions file:  CC_PMMA.cnd

Number of components:  6
Number of reactions:  2
Mixture rules assigned:  yes

Object type:  1D

Top Boundary
External radiation:  on
Mass transport:  on
Ignition:  on

Bottom Boundary
External radiation:  off
Mass transport:  off
Ignition:  off

Started on:  Wed Apr 24 18:16:08 2019

**************************************************************************

Time [s] =	0.000000e+00

BOUNDARY	AREA [m^2]   	HEAT FLOW IN [W]	MASS FLOW OUT [kg/s]:	PMMA	PMMA_glass	PMMA_res	PMMA_gas	KAOWOOL	KAOWOOL_back
TOP     	1.000000e+00	4.677866e+04		0.000000e+00	0.000000e+00	0.000000e+00	0.000000e+00	0.000000e+00	0.000000e+00
BOTTOM  	1.000000e+00	0.000000e+00		0.000000e+00	0.000000e+00	0.000000e+00	0.000000e+00	0.000000e+00	0.000000e+00

FROM TOP [m]	TEMPERATURE [K]   	CONCENTRATION [kg/m^3]:	PMMA	PMMA_glass	PMMA_res	PMMA_gas	KAOWOOL	KAOWOOL_back
2.500000e-05	3.000000e+02		1.155000e+03	0.000000e+00	0.000000e+00	0.000000e+00	0.000000e+00	0.000000e+00
1.025000e-03	3.000000e+02		1.155000e+03	0.000000e+00	0.000000e+00	0.000000e+00	0.000000e+00	0.000000e+00
2.025000e-03	3.000000e+02		1.155000e+03	0.000000e+00	0.000000e+00	0.000000e+00	0.000000e+00	0.000000e+00
3.025000e-03	3.000000e+02		1.155000e+03	0.000000e+00	0.000000e+00	0.000000e+00	0.000000e+00	0.000000e+00
4.025000e-03	3.000000e+02		1.155000e+03	0.000000e+00	0.000000e+00	0.000000e+00	0.000000e+00	0.000000e+00
5.025000e-03	3.000000e+02		1.155000e+03	0.000000e+00	0.000000e+00	0.000000e+00	0.000000e+00	0.000000e+00
6.025000e-03	3.000000e+02		0.000000e+00	0.000000e+00	0.000000e+00	0.000000e+00	2.560000e+02	0.000000e+00
7.025000e-03	3.000000e+02		0.000000e+00	0.000000e+00	0.000000e+00	0.000000e+00	2.560000e+02	0.000000e+00
8.025000e-03	3.000000e+02		0.000000e+00	0.000000e+00	0.000000e+00	0.000000e+00	2.560000e+02	0.000000e+00
9.025000e-03	3.000000e+02		0.000000e+00	0.000000e+00	0.000000e+00	0.000000e+00	2.560000e+02	0.000000e+00
1.002500e-02	3.000000e+02		0.000000e+00	0.000000e+00	0.000000e+00	0.000000e+00	2.560000e+02	0.000000e+00
1.102500e-02	3.000000e+02		0.000000e+00	0.000000e+00	0.000000e+00	0.000000e+00	2.560000e+02	0.000000e+00
1.202500e-02	3.000000e+02		0.000000e+00	0.000000e+00	0.000000e+00	0.000000e+00	2.560000e+02	0.000000e+00
1.302500e-02	3.000000e+02		0.000000e+00	0.000000e+00	0.000000e+00	0.000000e+00	2.560000e+02	0.000000e+00
1.402500e-02	3.000000e+02		0.000000e+00	0.000000e+00	0.000000e+00	0.000000e+00	2.560000e+02	0.000000e+00
1.502500e-02	3.000000e+02		0.000000e+00	0.000000e+00	0.000000e+00	0.000000e+00	2.560000e+02	0.000000e+00
1.602500e-02	3.000000e+02		0.000000e+00	0.000000e+00	0.000000e+00	0.000000e+00	2.560000e+02	0.000000e+00
1.702500e-02	3.000000e+02		0.000000e+00	0.000000e+00	0.000000e+00	0.000000e+00	2.560000e+02	0.000000e+00
1.802500e-02	3.000000e+02		0.000000e+00	0.000000e+00	0.000000e+00	0.000000e+00	2.560000e+02	0.000000e+00
1.902500e-02	3.000000e+02		0.000000e+00	0.000000e+00	0.000000e+00	0.000000e+00	2.560000e+02	0.000000e+00
2.002500e-02	3.000000e+02		0.000000e+00	0.000000e+00	0.000000e+00	0.000000e+00	2.560000e+02	0.000000e+00
2.102500e-02	3.000000e+02		0.000000e+00	0.000000e+00	0.000000e+00	0.000000e+00	2.560000e+02	0.000000e+00
2.202500e-02	3.000000e+02		0.000000e+00	0.000000e+00	0.000000e+00	0.000000e+00	2.560000e+02	0.000000e+00
2.302500e-02	3.000000e+02		0.000000e+00	0.000000e+00	0.000000e+00	0.000000e+00	2.560000e+02	0.000000e+00
2.402500e-02	3.000000e+02		0.000000e+00	0.000000e+00	0.000000e+00	0.000000e+00	0.000000e+00	2.560000e+02
2.497500e-02	3.000000e+02		0.000000e+00	0.000000e+00	0.000000e+00	0.000000e+00	0.000000e+00	2.560000e+02

Total thickness [m] =	2.500000e-02
Total mass [kg/m^2] =	1.179400e+01

**************************************************************************

Time [s] =	1.000000e+00

BOUNDARY	AREA [m^2]   	HEAT FLOW IN [W]	MASS FLOW OUT [kg/s]:	PMMA	PMMA_glass	PMMA_res	PMMA_gas	KAOWOOL	KAOWOOL_back
TOP     	1.000000e+00	4.630998e+04		0.000000e+00	0.000000e+00	0.000000e+00	0.000000e+00	0.000000e+00	0.000000e+00
BOTTOM  	1.000000e+00	0.000000e+00		0.000000e+00	0.000000e+00	0.000000e+00	0.000000e+00	0.000000e+00	0.000000e+00

FROM TOP [m]	TEMPERATURE [K]   	CONCENTRATION [kg/m^3]:	PMMA	PMMA_glass	PMMA_res	PMMA_gas	KAOWOOL	KAOWOOL_back
2.500000e-05	3.341504e+02		1.155000e+03	0.000000e+00	0.000000e+00	0.000000e+00	0.000000e+00	0.000000e+00
1.025000e-03	3.084191e+02		1.155000e+03	0.000000e+00	0.000000e+00	0.000000e+00	0.000000e+00	0.000000e+00
2.025000e-03	3.008513e+02		1.155000e+03	0.000000e+00	0.000000e+00	0.000000e+00	0.000000e+00	0.000000e+00
3.025000e-03	3.000693e+02		1.155000e+03	0.000000e+00	0.000000e+00	0.000000e+00	0.000000e+00	0.000000e+00
4.025000e-03	3.000000e+02		1.155000e+03	0.000000e+00	0.000000e+00	0.000000e+00	0.000000e+00	0.000000e+00
5.025000e-03	3.000000e+02		1.155000e+03	0.000000e+00	0.000000e+00	0.000000e+00	0.000000e+00	0.000000e+00
6.025000e-03	3.000000e+02		0.000000e+00	0.000000e+00	0.000000e+00	0.000000e+00	2.560000e+02	0.000000e+00
7.025000e-03	3.000000e+02		0.000000e+00	0.000000e+00	0.000000e+00	0.000000e+00	2.560000e+02	0.000000e+00
8.025000e-03	3.000000e+02		0.000000e+00	0.000000e+00	0.000000e+00	0.000000e+00	2.560000e+02	0.000000e+00
9.025000e-03	3.000000e+02		0.000000e+00	0.000000e+00	0.000000e+00	0.000000e+00	2.560000e+02	0.000000e+00
1.002500e-02	3.000000e+02		0.000000e+00	0.000000e+00	0.000000e+00	0.000000e+00	2.560000e+02	0.000000e+00
1.102500e-02	3.000000e+02		0.000000e+00	0.000000e+00	0.000000e+00	0.000000e+00	2.560000e+02	0.000000e+00
1.202500e-02	3.000000e+02		0.000000e+00	0.000000e+00	0.000000e+00	0.000000e+00	2.560000e+02	0.000000e+00
1.302500e-02	3.000000e+02		0.000000e+00	0.000000e+00	0.000000e+00	0.000000e+00	2.560000e+02	0.000000e+00
1.402500e-02	3.000000e+02		0.000000e+00	0.000000e+00	0.000000e+00	0.000000e+00	2.560000e+02	0.000000e+00
1.502500e-02	3.000000e+02		0.000000e+00	0.000000e+00	0.000000e+00	0.000000e+00	2.560000e+02	0.000000e+00
1.602500e-02	3.000000e+02		0.000000e+00	0.000000e+00	0.000000e+00	0.000000e+00	2.560000e+02	0.000000e+00
1.702500e-02	3.000000e+02		0.000000e+00	0.000000e+00	0.000000e+00	0.000000e+00	2.560000e+02	0.000000e+00
1.802500e-02	3.000000e+02		0.000000e+00	0.000000e+00	0.000000e+00	0.000000e+00	2.560000e+02	0.000000e+00
1.902500e-02	3.000000e+02		0.000000e+00	0.000000e+00	0.000000e+00	0.000000e+00	2.560000e+02	0.000000e+00
2.002500e-02	3.000000e+02		0.000000e+00	0.000000e+00	0.000000e+00	0.000000e+00	2.560000e+02	0.000000e+00
2.102500e-02	3.000000e+02		0.000000e+00	0.000000e+00	0.000000e+00	0.000000e+00	2.560000e+02	0.000000e+00
2.202500e-02	3.000000e+02		0.000000e+00	0.000000e+00	0.000000e+00	0.000000e+00	2.560000e+02	0.000000e+00
2.302500e-02	3.000000e+02		0.000000e+00	0.000000e+00	0.000000e+00	0.000000e+00	2.560000e+02	0.000000e+00
2.402500e-02	3.000000e+02		0.000000e+00	0.000000e+00	0.000000e+00	0.000000e+00	0.000000e+00	2.560000e+02
2.497500e-02	3.000000e+02		0.000000e+00	0.000000e+00	0.000000e+00	0.000000e+00	0.000000e+00	2.560000e+02

Total thickness [m] =	2.500000e-02
Total mass [kg/m^2] =	1.179400e+01

**************************************************************************

Time [s] =	2.000000e+00

BOUNDARY	AREA [m^2]   	HEAT FLOW IN [W]	MASS FLOW OUT [kg/s]:	PMMA	PMMA_glass	PMMA_res	PMMA_gas	KAOWOOL	KAOWOOL_back
TOP     	1.000000e+00	4.613345e+04		0.000000e+00	0.000000e+00	0.000000e+00	0.000000e+00	0.000000e+00	0.000000e+00
BOTTOM  	1.000000e+00	0.000000e+00		0.000000e+00	0.000000e+00	0.000000e+00	0.000000e+00	0.000000e+00	0.000000e+00

FROM TOP [m]	TEMPERATURE [K]   	CONCENTRATION [kg/m^3]:	PMMA	PMMA_glass	PMMA_res	PMMA_gas	KAOWOOL	KAOWOOL_back
2.500000e-05	3.530998e+02		1.155000e+03	0.000000e+00	0.000000e+00	0.000000e+00	0.000000e+00	0.000000e+00
1.025000e-03	3.182632e+02		1.155000e+03	0.000000e+00	0.000000e+00	0.000000e+00	0.000000e+00	0.000000e+00
2.025000e-03	3.024779e+02		1.155000e+03	0.000000e+00	0.000000e+00	0.000000e+00	0.000000e+00	0.000000e+00
3.025000e-03	3.003111e+02		1.155000e+03	0.000000e+00	0.000000e+00	0.000000e+00	0.000000e+00	0.000000e+00
4.025000e-03	3.000120e+02		1.155000e+03	0.000000e+00	0.000000e+00	0.000000e+00	0.000000e+00	0.000000e+00
5.025000e-03	3.000001e+02		1.155000e+03	0.000000e+00	0.000000e+00	0.000000e+00	0.000000e+00	0.000000e+00
6.025000e-03	3.000000e+02		0.000000e+00	0.000000e+00	0.000000e+00	0.000000e+00	2.560000e+02	0.000000e+00
7.025000e-03	3.000000e+02		0.000000e+00	0.000000e+00	0.000000e+00	0.000000e+00	2.560000e+02	0.000000e+00
8.025000e-03	3.000000e+02		0.000000e+00	0.000000e+00	0.000000e+00	0.000000e+00	2.560000e+02	0.000000e+00
9.025000e-03	3.000000e+02		0.000000e+00	0.000000e+00	0.000000e+00	0.000000e+00	2.560000e+02	0.000000e+00
1.002500e-02	3.000000e+02		0.000000e+00	0.000000e+00	0.000000e+00	0.000000e+00	2.560000e+02	0.000000e+00
1.102500e-02	3.000000e+02		0.000000e+00	0.000000e+00	0.000000e+00	0.000000e+00	2.560000e+02	0.000000e+00
1.202500e-02	3.000000e+02		0.000000e+00	0.000000e+00	0.000000e+00	0.000000e+00	2.560000e+02	0.000000e+00
1.302500e-02	3.000000e+02		0.000000e+00	0.000000e+00	0.000000e+00	0.000000e+00	2.560000e+02	0.000000e+00
1.402500e-02	3.000000e+02		0.000000e+00	0.000000e+00	0.000000e+00	0.000000e+00	2.560000e+02	0.000000e+00
1.502500e-02	3.000000e+02		0.000000e+00	0.000000e+00	0.000000e+00	0.000000e+00	2.560000e+02	0.000000e+00
1.602500e-02	3.000000e+02		0.000000e+00	0.000000e+00	0.000000e+00	0.000000e+00	2.560000e+02	0.000000e+00
1.702500e-02	3.000000e+02		0.000000e+00	0.000000e+00	0.000000e+00	0.000000e+00	2.560000e+02	0.000000e+00
1.802500e-02	3.000000e+02		0.000000e+00	0.000000e+00	0.000000e+00	0.000000e+00	2.560000e+02	0.000000e+00
1.902500e-02	3.000000e+02		0.000000e+00	0.000000e+00	0.000000e+00	0.000000e+00	2.560000e+02	0.000000e+00
2.002500e-02	3.000000e+02		0.000000e+00	0.000000e+00	0.000000e+00	0.000000e+00	2.560000e+02	0.000000e+00
2.102500e-02	3.000000e+02		0.000000e+00	0.000000e+00	0.000000e+00	0.000000e+00	2.560000e+02	0.000000e+00
2.202500e-02	3.000000e+02		0.000000e+00	0.000000e+00	0.000000e+00	0.000000e+00	2.560000e+02	0.000000e+00
2.302500e-02	3.000000e+02		0.000000e+00	0.000000e+00	0.000000e+00	0.000000e+00	2.560000e+02	0.000000e+00
2.402500e-02	3.000000e+02		0.000000e+00	0.000000e+00	0.000000e+00	0.000000e+00	0.000000e+00	2.560000e+02
2.497500e-02	3.000000e+02		0.000000e+00	0.000000e+00	0.000000e+00	0.000000e+00	0.000000e+00	2.560000e+02

Total thickness [m] =	2.500000e-02
Total mass [kg/m^2] =	1.179400e+01

**************************************************************************

Time [s] =	3.000000e+00

BOUNDARY	AREA [m^2]   	HEAT FLOW IN [W]	MASS FLOW OUT [kg/s]:	PMMA	PMMA_glass	PMMA_res	PMMA_gas	KAOWOOL	KAOWOOL_back
TOP     	1.000000e+00	4.595296e+04		0.000000e+00	0.000000e+00	0.000000e+00	0.000000e+00	0.000000e+00	0.000000e+00
BOTTOM  	1.000000e+00	0.000000e+00		0.000000e+00	0.000000e+00	0.000000e+00	0.000000e+00	0.000000e+00	0.000000e+00

FROM TOP [m]	TEMPERATURE [K]   	CONCENTRATION [kg/m^3]:	PMMA	PMMA_glass	PMMA_res	PMMA_gas	KAOWOOL	KAOWOOL_back
2.500000e-05	3.701670e+02		1.155000e+03	0.000000e+00	0.000000e+00	0.000000e+00	0.000000e+00	0.000000e+00
1.025000e-03	3.259763e+02		1.155000e+03	0.000000e+00	0.000000e+00	0.000000e+00	0.000000e+00	0.000000e+00
2.025000e-03	3.050844e+02		1.155000e+03	0.000000e+00	0.000000e+00	0.000000e+00	0.000000e+00	0.000000e+00
3.025000e-03	3.008502e+02		1.155000e+03	0.000000e+00	0.000000e+00	0.000000e+00	0.000000e+00	0.000000e+00
4.025000e-03	3.000837e+02		1.155000e+03	0.000000e+00	0.000000e+00	0.000000e+00	0.000000e+00	0.000000e+00
5.025000e-03	3.000027e+02		1.155000e+03	0.000000e+00	0.000000e+00	0.000000e+00	0.000000e+00	0.000000e+00
6.025000e-03	3.000001e+02		0.000000e+00	0.000000e+00	0.000000e+00	0.000000e+00	2.560000e+02	0.000000e+00
7.025000e-03	3.000000e+02		0.000000e+00	0.000000e+00	0.000000e+00	0.000000e+00	2.560000e+02	0.000000e+00
8.025000e-03	3.000000e+02		0.000000e+00	0.000000e+00	0.000000e+00	0.000000e+00	2.560000e+02	0.000000e+00
9.025000e-03	3.000000e+02		0.000000e+00	0.000000e+00	0.000000e+00	0.000000e+00	2.560000e+02	0.000000e+00
1.002500e-02	3.000000e+02		0.000000e+00	0.000000e+00	0.000000e+00	0.000000e+00	2.560000e+02	0.000000e+00
1.102500e-02	3.000000e+02		0.000000e+00	0.000000e+00	0.000000e+00	0.000000e+00	2.560000e+02	0.000000e+00
1.202500e-02	3.000000e+02		0.000000e+00	0.000000e+00	0.000000e+00	0.000000e+00	2.560000e+02	0.000000e+00
1.302500e-02	3.000000e+02		0.000000e+00	0.000000e+00	0.000000e+00	0.000000e+00	2.560000e+02	0.000000e+00
1.402500e-02	3.000000e+02		0.000000e+00	0.000000e+00	0.000000e+00	0.000000e+00	2.560000e+02	0.000000e+00
1.502500e-02	3.000000e+02		0.000000e+00	0.000000e+00	0.000000e+00	0.000000e+00	2.560000e+02	0.000000e+00
1.602500e-02	3.000000e+02		0.000000e+00	0.000000e+00	0.000000e+00	0.000000e+00	2.560000e+02	0.000000e+00
1.702500e-02	3.000000e+02		0.000000e+00	0.000000e+00	0.000000e+00	0.000000e+00	2.560000e+02	0.000000e+00
1.802500e-02	3.000000e+02		0.000000e+00	0.000000e+00	0.000000e+00	0.000000e+00	2.560000e+02	0.000000e+00
1.902500e-02	3.000000e+02		0.000000e+00	0.000000e+00	0.000000e+00	0.000000e+00	2.560000e+02	0.000000e+00
2.002500e-02	3.000000e+02		0.000000e+00	0.000000e+00	0.000000e+00	0.000000e+00	2.560000e+02	0.000000e+00
2.102500e-02	3.000000e+02		0.000000e+00	0.000000e+00	0.000000e+00	0.000000e+00	2.560000e+02	0.000000e+00
2.202500e-02	3.000000e+02		0.000000e+00	0.000000e+00	0.000000e+00	0.000000e+00	2.560000e+02	0.000000e+00
2.302500e-02	3.000000e+02		0.000000e+00	0.000000e+00	0.000000e+00	0.000000e+00	2.560000e+02	0.000000e+00
2.402500e-02	3.000000e+02		0.000000e+00	0.000000e+00	0.000000e+00	0.000000e+00	0.000000e+00	2.560000e+02
2.497500e-02	3.000000e+02		0.000000e+00	0.000000e+00	0.000000e+00	0.000000e+00	0.000000e+00	2.560000e+02

Total thickness [m] =	2.500000e-02
Total mass [kg/m^2] =	1.179400e+01

**************************************************************************

Time [s] =	4.000000e+00

BOUNDARY	AREA [m^2]   	HEAT FLOW IN [W]	MASS FLOW OUT [kg/s]:	PMMA	PMMA_glass	PMMA_res	PMMA_gas	KAOWOOL	KAOWOOL_back
TOP     	1.000000e+00	4.568069e+04		0.000000e+00	0.000000e+00	0.000000e+00	7.174284e-15	0.000000e+00	0.000000e+00
BOTTOM  	1.000000e+00	0.000000e+00		0.000000e+00	0.000000e+00	0.000000e+00	0.000000e+00	0.000000e+00	0.000000e+00

FROM TOP [m]	TEMPERATURE [K]   	CONCENTRATION [kg/m^3]:	PMMA	PMMA_glass	PMMA_res	PMMA_gas	KAOWOOL	KAOWOOL_back
2.500000e-05	3.816156e+02		6.866683e+02	4.683317e+02	2.489984e-13	1.434857e-13	0.000000e+00	0.000000e+00
1.025000e-03	3.375875e+02		1.155000e+03	0.000000e+00	0.000000e+00	1.005307e-13	0.000000e+00	0.000000e+00
2.025000e-03	3.083293e+02		1.155000e+03	0.000000e+00	0.000000e+00	6.029538e-14	0.000000e+00	0.000000e+00
3.025000e-03	3.017040e+02		1.155000e+03	0.000000e+00	0.000000e+00	3.714066e-14	0.000000e+00	0.000000e+00
4.025000e-03	3.002101e+02		1.155000e+03	0.000000e+00	0.000000e+00	2.398060e-14	0.000000e+00	0.000000e+00
5.025000e-03	3.000166e+02		1.155000e+03	0.000000e+00	0.000000e+00	1.713181e-14	0.000000e+00	0.000000e+00
6.025000e-03	3.000011e+02		0.000000e+00	0.000000e+00	0.000000e+00	1.536323e-36	2.560000e+02	0.000000e+00
7.025000e-03	3.000000e+02		0.000000e+00	0.000000e+00	0.000000e+00	0.000000e+00	2.560000e+02	0.000000e+00
8.025000e-03	3.000000e+02		0.000000e+00	0.000000e+00	0.000000e+00	0.000000e+00	2.560000e+02	0.000000e+00
9.025000e-03	3.000000e+02		0.000000e+00	0.000000e+00	0.000000e+00	0.000000e+00	2.560000e+02	0.000000e+00
1.002500e-02	3.000000e+02		0.000000e+00	0.000000e+00	0.000000e+00	0.000000e+00	2.560000e+02	0.000000e+00
1.102500e-02	3.000000e+02		0.000000e+00	0.000000e+00	0.000000e+00	0.000000e+00	2.560000e+02	0.000000e+00
1.202500e-02	3.000000e+02		0.000000e+00	0.000000e+00	0.000000e+00	0.000000e+00	2.560000e+02	0.000000e+00
1.302500e-02	3.000000e+02		0.000000e+00	0.000000e+00	0.000000e+00	0.000000e+00	2.560000e+02	0.000000e+00
1.402500e-02	3.000000e+02		0.000000e+00	0.000000e+00	0.000000e+00	0.000000e+00	2.560000e+02	0.000000e+00
1.502500e-02	3.000000e+02		0.000000e+00	0.000000e+00	0.000000e+00	0.000000e+00	2.560000e+02	0.000000e+00
1.602500e-02	3.000000e+02		0.000000e+00	0.000000e+00	0.000000e+00	0.000000e+00	2.560000e+02	0.000000e+00
1.702500e-02	3.000000e+02		0.000000e+00	0.000000e+00	0.000000e+00	0.000000e+00	2.560000e+02	0.000000e+00
1.802500e-02	3.000000e+02		0.000000e+00	0.000000e+00	0.000000e+00	0.000000e+00	2.560000e+02	0.000000e+00
1.902500e-02	3.000000e+02		0.000000e+00	0.000000e+00	0.000000e+00	0.000000e+00	2.560000e+02	0.000000e+00
2.002500e-02	3.000000e+02		0.000000e+00	0.000000e+00	0.000000e+00	0.000000e+00	2.560000e+02	0.000000e+00
2.102500e-02	3.000000e+02		0.000000e+00	0.000000e+00	0.000000e+00	0.000000e+00	2.560000e+02	0.000000e+00
2.202500e-02	3.000000e+02		0.000000e+00	0.000000e+00	0.000000e+00	0.000000e+00	2.560000e+02	0.000000e+00
2.302500e-02	3.000000e+02		0.000000e+00	0.000000e+00	0.000000e+00	0.000000e+00	2.560000e+02	0.000000e+00
2.402500e-02	3.000000e+02		0.000000e+00	0.000000e+00	0.000000e+00	0.000000e+00	0.000000e+00	2.560000e+02
2.497500e-02	3.000000e+02		0.000000e+00	0.000000e+00	0.000000e+00	0.000000e+00	0.000000e+00	2.560000e+02

Total thickness [m] =	2.500000e-02
Total mass [kg/m^2] =	1.179400e+01

**************************************************************************

Time [s] =	5.000000e+00

BOUNDARY	AREA [m^2]   	HEAT FLOW IN [W]	MASS FLOW OUT [kg/s]:	PMMA	PMMA_glass	PMMA_res	PMMA_gas	KAOWOOL	KAOWOOL_back
TOP     	1.000000e+00	4.503859e+04		0.000000e+00	0.000000e+00	0.000000e+00	1.959421e-13	0.000000e+00	0.000000e+00
BOTTOM  	1.000000e+00	0.000000e+00		0.000000e+00	0.000000e+00	0.000000e+00	0.000000e+00	0.000000e+00	0.000000e+00

FROM TOP [m]	TEMPERATURE [K]   	CONCENTRATION [kg/m^3]:	PMMA	PMMA_glass	PMMA_res	PMMA_gas	KAOWOOL	KAOWOOL_back
2.500000e-05	3.958552e+02		2.526090e+02	9.023910e+02	8.653158e-12	3.918841e-12	0.000000e+00	0.000000e+00
1.025000e-03	3.462362e+02		1.155000e+03	0.000000e+00	0.000000e+00	3.456674e-12	0.000000e+00	0.000000e+00
2.025000e-03	3.122671e+02		1.155000e+03	0.000000e+00	0.000000e+00	2.525936e-12	0.000000e+00	0.000000e+00
3.025000e-03	3.025609e+02		1.155000e+03	0.000000e+00	0.000000e+00	1.868130e-12	0.000000e+00	0.000000e+00
4.025000e-03	3.004276e+02		1.155000e+03	0.000000e+00	0.000000e+00	1.447966e-12	0.000000e+00	0.000000e+00
5.025000e-03	3.000488e+02		1.155000e+03	0.000000e+00	0.000000e+00	1.219887e-12	0.000000e+00	0.000000e+00
6.025000e-03	3.000061e+02		0.000000e+00	0.000000e+00	0.000000e+00	2.714393e-34	2.560000e+02	0.000000e+00
7.025000e-03	3.000003e+02		0.000000e+00	0.000000e+00	0.000000e+00	0.000000e+00	2.560000e+02	0.000000e+00
8.025000e-03	3.000000e+02		0.000000e+00	0.000000e+00	0.000000e+00	0.000000e+00	2.560000e+02	0.000000e+00
9.025000e-03	3.000000e+02		0.000000e+00	0.000000e+00	0.000000e+00	0.000000e+00	2.560000e+02	0.000000e+00
1.002500e-02	3.000000e+02		0.000000e+00	0.000000e+00	0.000000e+00	0.000000e+00	2.560000e+02	0.000000e+00
1.102500e-02	3.000000e+02		0.000000e+00	0.000000e+00	0.000000e+00	0.000000e+00	2.560000e+02	0.000000e+00
1.202500e-02	3.000000e+02		0.000000e+00	0.000000e+00	0.000000e+00	0.000000e+00	2.560000e+02	0.000000e+00
1.302500e-02	3.000000e+02		0.000000e+00	0.000000e+00	0.000000e+00	0.000000e+00	2.560000e+02	0.000000e+00
1.402500e-02	3.000000e+02		0.000000e+00	0.000000e+00	0.000000e+00	0.000000e+00	2.560000e+02	0.000000e+00
1.502500e-02	3.000000e+02		0.000000e+00	0.000000e+00	0.000000e+00	0.000000e+00	2.560000e+02	0.000000e+00
1.602500e-02	3.000000e+02		0.000000e+00	0.000000e+00	0.000000e+00	0.000000e+00	2.560000e+02	0.000000e+00
1.702500e-02	3.000000e+02		0.000000e+00	0.000000e+00	0.000000e+00	0.000000e+00	2.560000e+02	0.000000e+00
1.802500e-02	3.000000e+02		0.000000e+00	0.000000e+00	0.000000e+00	0.000000e+00	2.560000e+02	0.000000e+00
1.902500e-02	3.000000e+02		0.000000e+00	0.000000e+00	0.000000e+00	0.000000e+00	2.560000e+02	0.000000e+00
2.002500e-02	3.000000e+02		0.000000e+00	0.000000e+00	0.000000e+00	0.000000e+00	2.560000e+02	0.000000e+00
2.102500e-02	3.000000e+02		0.000000e+00	0.000000e+00	0.000000e+00	0.000000e+00	2.560000e+02	0.000000e+00
2.202500e-02	3.000000e+02		0.000000e+00	0.000000e+00	0.000000e+00	0.000000e+00	2.560000e+02	0.000000e+00
2.302500e-02	3.000000e+02		0.000000e+00	0.000000e+00	0.000000e+00	0.000000e+00	2.560000e+02	0.000000e+00
2.402500e-02	3.000000e+02		0.000000e+00	0.000000e+00	0.000000e+00	0.000000e+00	0.000000e+00	2.560000e+02
2.497500e-02	3.000000e+02		0.000000e+00	0.000000e+00	0.000000e+00	0.000000e+00	0.000000e+00	2.560000e+02

Total thickness [m] =	2.500000e-02
Total mass [kg/m^2] =	1.179400e+01

**************************************************************************

Time [s] =	6.000000e+00

BOUNDARY	AREA [m^2]   	HEAT FLOW IN [W]	MASS FLOW OUT [kg/s]:	PMMA	PMMA_glass	PMMA_res	PMMA_gas	KAOWOOL	KAOWOOL_back
TOP     	1.000000e+00	4.514542e+04		0.000000e+00	0.000000e+00	0.000000e+00	2.616273e-12	0.000000e+00	0.000000e+00
BOTTOM  	1.000000e+00	0.000000e+00		0.000000e+00	0.000000e+00	0.000000e+00	0.000000e+00	0.000000e+00	0.000000e+00

FROM TOP [m]	TEMPERATURE [K]   	CONCENTRATION [kg/m^3]:	PMMA	PMMA_glass	PMMA_res	PMMA_gas	KAOWOOL	KAOWOOL_back
2.500000e-05	4.125048e+02		9.292889e+01	1.062071e+03	9.862780e-11	5.232546e-11	0.000000e+00	0.000000e+00
1.025000e-03	3.528622e+02		1.155000e+03	0.000000e+00	0.000000e+00	5.038252e-11	0.000000e+00	0.000000e+00
2.025000e-03	3.168198e+02		1.155000e+03	0.000000e+00	0.000000e+00	3.702937e-11	0.000000e+00	0.000000e+00
3.025000e-03	3.038411e+02		1.155000e+03	0.000000e+00	0.000000e+00	2.792580e-11	0.000000e+00	0.000000e+00
4.025000e-03	3.007326e+02		1.155000e+03	0.000000e+00	0.000000e+00	2.189308e-11	0.000000e+00	0.000000e+00
5.025000e-03	3.001076e+02		1.155000e+03	0.000000e+00	0.000000e+00	1.844799e-11	0.000000e+00	0.000000e+00
6.025000e-03	3.000192e+02		0.000000e+00	0.000000e+00	0.000000e+00	5.231277e-33	2.560000e+02	0.000000e+00
7.025000e-03	3.000014e+02		0.000000e+00	0.000000e+00	0.000000e+00	0.000000e+00	2.560000e+02	0.000000e+00
8.025000e-03	3.000001e+02		0.000000e+00	0.000000e+00	0.000000e+00	0.000000e+00	2.560000e+02	0.000000e+00
9.025000e-03	3.000000e+02		0.000000e+00	0.000000e+00	0.000000e+00	0.000000e+00	2.560000e+02	0.000000e+00
1.002500e-02	3.000000e+02		0.000000e+00	0.000000e+00	0.000000e+00	0.000000e+00	2.560000e+02	0.000000e+00
1.102500e-02	3.000000e+02		0.000000e+00	0.000000e+00	0.000000e+00	0.000000e+00	2.560000e+02	0.000000e+00
1.202500e-02	3.000000e+02		0.000000e+00	0.000000e+00	0.000000e+00	0.000000e+00	2.560000e+02	0.000000e+00
1.302500e-02	3.000000e+02		0.000000e+00	0.000000e+00	0.000000e+00	0.000000e+00	2.560000e+02	0.000000e+00
1.402500e-02	3.000000e+02		0.000000e+00	0.000000e+00	0.000000e+00	0.000000e+00	2.560000e+02	0.000000e+00
1.502500e-02	3.000000e+02		0.000000e+00	0.000000e+00	0.000000e+00	0.000000e+00	2.560000e+02	0.000000e+00
1.602500e-02	3.000000e+02		0.000000e+00	0.000000e+00	0.000000e+00	0.000000e+00	2.560000e+02	0.000000e+00
1.702500e-02	3.000000e+02		0.000000e+00	0.000000e+00	0.000000e+00	0.000000e+00	2.560000e+02	0.000000e+00
1.802500e-02	3.000000e+02		0.000000e+00	0.000000e+00	0.000000e+00	0.000000e+00	2.560000e+02	0.000000e+00
1.902500e-02	3.000000e+02		0.000000e+00	0.000000e+00	0.000000e+00	0.000000e+00	2.560000e+02	0.000000e+00
2.002500e-02	3.000000e+02		0.000000e+00	0.000000e+00	0.000000e+00	0.000000e+00	2.560000e+02	0.000000e+00
2.102500e-02	3.000000e+02		0.000000e+00	0.000000e+00	0.000000e+00	0.000000e+00	2.560000e+02	0.000000e+00
2.202500e-02	3.000000e+02		0.000000e+00	0.000000e+00	0.000000e+00	0.000000e+00	2.560000e+02	0.000000e+00
2.302500e-02	3.000000e+02		0.000000e+00	0.000000e+00	0.000000e+00	0.000000e+00	2.560000e+02	0.000000e+00
2.402500e-02	3.000000e+02		0.000000e+00	0.000000e+00	0.000000e+00	0.000000e+00	0.000000e+00	2.560000e+02
2.497500e-02	3.000000e+02		0.000000e+00	0.000000e+00	0.000000e+00	0.000000e+00	0.000000e+00	2.560000e+02

Total thickness [m] =	2.500000e-02
Total mass [kg/m^2] =	1.179400e+01

**************************************************************************

Time [s] =	7.000000e+00

BOUNDARY	AREA [m^2]   	HEAT FLOW IN [W]	MASS FLOW OUT [kg/s]:	PMMA	PMMA_glass	PMMA_res	PMMA_gas	KAOWOOL	KAOWOOL_back
TOP     	1.000000e+00	4.469528e+04		0.000000e+00	0.000000e+00	0.000000e+00	1.239917e-11	0.000000e+00	0.000000e+00
BOTTOM  	1.000000e+00	0.000000e+00		0.000000e+00	0.000000e+00	0.000000e+00	0.000000e+00	0.000000e+00	0.000000e+00

FROM TOP [m]	TEMPERATURE [K]   	CONCENTRATION [kg/m^3]:	PMMA	PMMA_glass	PMMA_res	PMMA_gas	KAOWOOL	KAOWOOL_back
2.500000e-05	4.234699e+02		3.418634e+01	1.120814e+03	6.629374e-10	2.479835e-10	0.000000e+00	0.000000e+00
1.025000e-03	3.599891e+02		1.155000e+03	0.000000e+00	0.000000e+00	2.721981e-10	0.000000e+00	0.000000e+00
2.025000e-03	3.211125e+02		1.155000e+03	0.000000e+00	0.000000e+00	2.190038e-10	0.000000e+00	0.000000e+00
3.025000e-03	3.054840e+02		1.155000e+03	0.000000e+00	0.000000e+00	1.761886e-10	0.000000e+00	0.000000e+00
4.025000e-03	3.011610e+02		1.155000e+03	0.000000e+00	0.000000e+00	1.461676e-10	0.000000e+00	0.000000e+00
5.025000e-03	3.002015e+02		1.155000e+03	0.000000e+00	0.000000e+00	1.287782e-10	0.000000e+00	0.000000e+00
6.025000e-03	3.000457e+02		0.000000e+00	0.000000e+00	0.000000e+00	4.963696e-32	2.560000e+02	0.000000e+00
7.025000e-03	3.000045e+02		0.000000e+00	0.000000e+00	0.000000e+00	0.000000e+00	2.560000e+02	0.000000e+00
8.025000e-03	3.000003e+02		0.000000e+00	0.000000e+00	0.000000e+00	0.000000e+00	2.560000e+02	0.000000e+00
9.025000e-03	3.000000e+02		0.000000e+00	0.000000e+00	0.000000e+00	0.000000e+00	2.560000e+02	0.000000e+00
1.002500e-02	3.000000e+02		0.000000e+00	0.000000e+00	0.000000e+00	0.000000e+00	2.560000e+02	0.000000e+00
1.102500e-02	3.000000e+02		0.000000e+00	0.000000e+00	0.000000e+00	0.000000e+00	2.560000e+02	0.000000e+00
1.202500e-02	3.000000e+02		0.000000e+00	0.000000e+00	0.000000e+00	0.000000e+00	2.560000e+02	0.000000e+00
1.302500e-02	3.000000e+02		0.000000e+00	0.000000e+00	0.000000e+00	0.000000e+00	2.560000e+02	0.000000e+00
1.402500e-02	3.000000e+02		0.000000e+00	0.000000e+00	0.000000e+00	0.000000e+00	2.560000e+02	0.000000e+00
1.502500e-02	3.000000e+02		0.000000e+00	0.000000e+00	0.000000e+00	0.000000e+00	2.560000e+02	0.000000e+00
1.602500e-02	3.000000e+02		0.000000e+00	0.000000e+00	0.000000e+00	0.000000e+00	2.560000e+02	0.000000e+00
1.702500e-02	3.000000e+02		0.000000e+00	0.000000e+00	0.000000e+00	0.000000e+00	2.560000e+02	0.000000e+00
1.802500e-02	3.000000e+02		0.000000e+00	0.000000e+00	0.000000e+00	0.000000e+00	2.560000e+02	0.000000e+00
1.902500e-02	3.000000e+02		0.000000e+00	0.000000e+00	0.000000e+00	0.000000e+00	2.560000e+02	0.000000e+00
2.002500e-02	3.000000e+02		0.000000e+00	0.000000e+00	0.000000e+00	0.000000e+00	2.560000e+02	0.000000e+00
2.102500e-02	3.000000e+02		0.000000e+00	0.000000e+00	0.000000e+00	0.000000e+00	2.560000e+02	0.000000e+00
2.202500e-02	3.000000e+02		0.000000e+00	0.000000e+00	0.000000e+00	0.000000e+00	2.560000e+02	0.000000e+00
2.302500e-02	3.000000e+02		0.000000e+00	0.000000e+00	0.000000e+00	0.000000e+00	2.560000e+02	0.000000e+00
2.402500e-02	3.000000e+02		0.000000e+00	0.000000e+00	0.000000e+00	0.000000e+00	0.000000e+00	2.560000e+02
2.497500e-02	3.000000e+02		0.000000e+00	0.000000e+00	0.000000e+00	0.000000e+00	0.000000e+00	2.560000e+02

Total thickness [m] =	2.500000e-02
Total mass [kg/m^2] =	1.179400e+01

**************************************************************************

Time [s] =	8.000000e+00

BOUNDARY	AREA [m^2]   	HEAT FLOW IN [W]	MASS FLOW OUT [kg/s]:	PMMA	PMMA_glass	PMMA_res	PMMA_gas	KAOWOOL	KAOWOOL_back
TOP     	1.000000e+00	4.411375e+04		0.000000e+00	0.000000e+00	0.000000e+00	4.512278e-11	0.000000e+00	0.000000e+00
BOTTOM  	1.000000e+00	0.000000e+00		0.000000e+00	0.000000e+00	0.000000e+00	0.000000e+00	0.000000e+00	0.000000e+00

FROM TOP [m]	TEMPERATURE [K]   	CONCENTRATION [kg/m^3]:	PMMA	PMMA_glass	PMMA_res	PMMA_gas	KAOWOOL	KAOWOOL_back
2.500000e-05	4.337185e+02		1.257635e+01	1.142424e+03	2.662570e-09	9.024555e-10	0.000000e+00	0.000000e+00
1.025000e-03	3.671561e+02		1.155000e+03	0.000000e+00	0.000000e+00	9.863086e-10	0.000000e+00	0.000000e+00
2.025000e-03	3.256560e+02		1.155000e+03	0.000000e+00	0.000000e+00	8.009741e-10	0.000000e+00	0.000000e+00
3.025000e-03	3.073736e+02		1.155000e+03	0.000000e+00	0.000000e+00	6.494225e-10	0.000000e+00	0.000000e+00
4.025000e-03	3.017360e+02		1.155000e+03	0.000000e+00	0.000000e+00	5.441478e-10	0.000000e+00	0.000000e+00
5.025000e-03	3.003416e+02		1.155000e+03	0.000000e+00	0.000000e+00	4.843492e-10	0.000000e+00	0.000000e+00
6.025000e-03	3.000917e+02		0.000000e+00	0.000000e+00	0.000000e+00	2.576242e-31	2.560000e+02	0.000000e+00
7.025000e-03	3.000114e+02		0.000000e+00	0.000000e+00	0.000000e+00	0.000000e+00	2.560000e+02	0.000000e+00
8.025000e-03	3.000011e+02		0.000000e+00	0.000000e+00	0.000000e+00	0.000000e+00	2.560000e+02	0.000000e+00
9.025000e-03	3.000001e+02		0.000000e+00	0.000000e+00	0.000000e+00	0.000000e+00	2.560000e+02	0.000000e+00
1.002500e-02	3.000000e+02		0.000000e+00	0.000000e+00	0.000000e+00	0.000000e+00	2.560000e+02	0.000000e+00
1.102500e-02	3.000000e+02		0.000000e+00	0.000000e+00	0.000000e+00	0.000000e+00	2.560000e+02	0.000000e+00
1.202500e-02	3.000000e+02		0.000000e+00	0.000000e+00	0.000000e+00	0.000000e+00	2.560000e+02	0.000000e+00
1.302500e-02	3.000000e+02		0.000000e+00	0.000000e+00	0.000000e+00	0.000000e+00	2.560000e+02	0.000000e+00
1.402500e-02	3.000000e+02		0.000000e+00	0.000000e+00	0.000000e+00	0.000000e+00	2.560000e+02	0.000000e+00
1.502500e-02	3.000000e+02		0.000000e+00	0.000000e+00	0.000000e+00	0.000000e+00	2.560000e+02	0.000000e+00
1.602500e-02	3.000000e+02		0.000000e+00	0.000000e+00	0.000000e+00	0.000000e+00	2.560000e+02	0.000000e+00
1.702500e-02	3.000000e+02		0.000000e+00	0.000000e+00	0.000000e+00	0.000000e+00	2.560000e+02	0.000000e+00
1.802500e-02	3.000000e+02		0.000000e+00	0.000000e+00	0.000000e+00	0.000000e+00	2.560000e+02	0.000000e+00
1.902500e-02	3.000000e+02		0.000000e+00	0.000000e+00	0.000000e+00	0.000000e+00	2.560000e+02	0.000000e+00
2.002500e-02	3.000000e+02		0.000000e+00	0.000000e+00	0.000000e+00	0.000000e+00	2.560000e+02	0.000000e+00
2.102500e-02	3.000000e+02		0.000000e+00	0.000000e+00	0.000000e+00	0.000000e+00	2.560000e+02	0.000000e+00
2.202500e-02	3.000000e+02		0.000000e+00	0.000000e+00	0.000000e+00	0.000000e+00	2.560000e+02	0.000000e+00
2.302500e-02	3.000000e+02		0.000000e+00	0.000000e+00	0.000000e+00	0.000000e+00	2.560000e+02	0.000000e+00
2.402500e-02	3.000000e+02		0.000000e+00	0.000000e+00	0.000000e+00	0.000000e+00	0.000000e+00	2.560000e+02
2.497500e-02	3.000000e+02		0.000000e+00	0.000000e+00	0.000000e+00	0.000000e+00	0.000000e+00	2.560000e+02

Total thickness [m] =	2.500000e-02
Total mass [kg/m^2] =	1.179400e+01

**************************************************************************

Time [s] =	9.000000e+00

BOUNDARY	AREA [m^2]   	HEAT FLOW IN [W]	MASS FLOW OUT [kg/s]:	PMMA	PMMA_glass	PMMA_res	PMMA_gas	KAOWOOL	KAOWOOL_back
TOP     	1.000000e+00	4.372687e+04		0.000000e+00	0.000000e+00	0.000000e+00	1.792243e-10	0.000000e+00	0.000000e+00
BOTTOM  	1.000000e+00	0.000000e+00		0.000000e+00	0.000000e+00	0.000000e+00	0.000000e+00	0.000000e+00	0.000000e+00

FROM TOP [m]	TEMPERATURE [K]   	CONCENTRATION [kg/m^3]:	PMMA	PMMA_glass	PMMA_res	PMMA_gas	KAOWOOL	KAOWOOL_back
2.500000e-05	4.472635e+02		4.626542e+00	1.150373e+03	9.913035e-09	3.584485e-09	0.000000e+00	0.000000e+00
1.025000e-03	3.733548e+02		1.155000e+03	0.000000e+00	0.000000e+00	3.642956e-09	0.000000e+00	0.000000e+00
2.025000e-03	3.299814e+02		1.155000e+03	0.000000e+00	0.000000e+00	2.866220e-09	0.000000e+00	0.000000e+00
3.025000e-03	3.095281e+02		1.155000e+03	0.000000e+00	0.000000e+00	2.347410e-09	0.000000e+00	0.000000e+00
4.025000e-03	3.024579e+02		1.155000e+03	0.000000e+00	0.000000e+00	2.011709e-09	0.000000e+00	0.000000e+00
5.025000e-03	3.005404e+02		1.155000e+03	0.000000e+00	0.000000e+00	1.821632e-09	0.000000e+00	0.000000e+00
6.025000e-03	3.001645e+02		0.000000e+00	0.000000e+00	0.000000e+00	1.045201e-30	2.560000e+02	0.000000e+00
7.025000e-03	3.000243e+02		0.000000e+00	0.000000e+00	0.000000e+00	0.000000e+00	2.560000e+02	0.000000e+00
8.025000e-03	3.000028e+02		0.000000e+00	0.000000e+00	0.000000e+00	0.000000e+00	2.560000e+02	0.000000e+00
9.025000e-03	3.000003e+02		0.000000e+00	0.000000e+00	0.000000e+00	0.000000e+00	2.560000e+02	0.000000e+00
1.002500e-02	3.000000e+02		0.000000e+00	0.000000e+00	0.000000e+00	0.000000e+00	2.560000e+02	0.000000e+00
1.102500e-02	3.000000e+02		0.000000e+00	0.000000e+00	0.000000e+00	0.000000e+00	2.560000e+02	0.000000e+00
1.202500e-02	3.000000e+02		0.000000e+00	0.000000e+00	0.000000e+00	0.000000e+00	2.560000e+02	0.000000e+00
1.302500e-02	3.000000e+02		0.000000e+00	0.000000e+00	0.000000e+00	0.000000e+00	2.560000e+02	0.000000e+00
1.402500e-02	3.000000e+02		0.000000e+00	0.000000e+00	0.000000e+00	0.000000e+00	2.560000e+02	0.000000e+00
1.502500e-02	3.000000e+02		0.000000e+00	0.000000e+00	0.000000e+00	0.000000e+00	2.560000e+02	0.000000e+00
1.602500e-02	3.000000e+02		0.000000e+00	0.000000e+00	0.000000e+00	0.000000e+00	2.560000e+02	0.000000e+00
1.702500e-02	3.000000e+02		0.000000e+00	0.000000e+00	0.000000e+00	0.000000e+00	2.560000e+02	0.000000e+00
1.802500e-02	3.000000e+02		0.000000e+00	0.000000e+00	0.000000e+00	0.000000e+00	2.560000e+02	0.000000e+00
1.902500e-02	3.000000e+02		0.000000e+00	0.000000e+00	0.000000e+00	0.000000e+00	2.560000e+02	0.000000e+00
2.002500e-02	3.000000e+02		0.000000e+00	0.000000e+00	0.000000e+00	0.000000e+00	2.560000e+02	0.000000e+00
2.102500e-02	3.000000e+02		0.000000e+00	0.000000e+00	0.000000e+00	0.000000e+00	2.560000e+02	0.000000e+00
2.202500e-02	3.000000e+02		0.000000e+00	0.000000e+00	0.000000e+00	0.000000e+00	2.560000e+02	0.000000e+00
2.302500e-02	3.000000e+02		0.000000e+00	0.000000e+00	0.000000e+00	0.000000e+00	2.560000e+02	0.000000e+00
2.402500e-02	3.000000e+02		0.000000e+00	0.000000e+00	0.000000e+00	0.000000e+00	0.000000e+00	2.560000e+02
2.497500e-02	3.000000e+02		0.000000e+00	0.000000e+00	0.000000e+00	0.000000e+00	0.000000e+00	2.560000e+02

Total thickness [m] =	2.500000e-02
Total mass [kg/m^2] =	1.179400e+01

**************************************************************************

Time [s] =	1.000000e+01

BOUNDARY	AREA [m^2]   	HEAT FLOW IN [W]	MASS FLOW OUT [kg/s]:	PMMA	PMMA_glass	PMMA_res	PMMA_gas	KAOWOOL	KAOWOOL_back
TOP     	1.000000e+00	4.356166e+04		0.000000e+00	0.000000e+00	0.000000e+00	7.867767e-10	0.000000e+00	0.000000e+00
BOTTOM  	1.000000e+00	0.000000e+00		0.000000e+00	0.000000e+00	0.000000e+00	0.000000e+00	0.000000e+00	0.000000e+00

FROM TOP [m]	TEMPERATURE [K]   	CONCENTRATION [kg/m^3]:	PMMA	PMMA_glass	PMMA_res	PMMA_gas	KAOWOOL	KAOWOOL_back
2.500000e-05	4.597334e+02		1.701995e+00	1.153298e+03	4.452969e-08	1.573553e-08	0.000000e+00	0.000000e+00
1.025000e-03	3.779581e+02		1.055590e+03	9.941027e+01	6.005930e-15	1.610122e-08	0.000000e+00	0.000000e+00
2.025000e-03	3.340547e+02		1.155000e+03	0.000000e+00	0.000000e+00	1.249028e-08	0.000000e+00	0.000000e+00
3.025000e-03	3.117358e+02		1.155000e+03	0.000000e+00	0.000000e+00	1.003524e-08	0.000000e+00	0.000000e+00
4.025000e-03	3.033265e+02		1.155000e+03	0.000000e+00	0.000000e+00	8.531589e-09	0.000000e+00	0.000000e+00
5.025000e-03	3.008074e+02		1.155000e+03	0.000000e+00	0.000000e+00	7.731735e-09	0.000000e+00	0.000000e+00
6.025000e-03	3.002725e+02		0.000000e+00	0.000000e+00	0.000000e+00	4.276710e-30	2.560000e+02	0.000000e+00
7.025000e-03	3.000461e+02		0.000000e+00	0.000000e+00	0.000000e+00	0.000000e+00	2.560000e+02	0.000000e+00
8.025000e-03	3.000064e+02		0.000000e+00	0.000000e+00	0.000000e+00	0.000000e+00	2.560000e+02	0.000000e+00
9.025000e-03	3.000007e+02		0.000000e+00	0.000000e+00	0.000000e+00	0.000000e+00	2.560000e+02	0.000000e+00
1.002500e-02	3.000001e+02		0.000000e+00	0.000000e+00	0.000000e+00	0.000000e+00	2.560000e+02	0.000000e+00
1.102500e-02	3.000000e+02		0.000000e+00	0.000000e+00	0.000000e+00	0.000000e+00	2.560000e+02	0.000000e+00
1.202500e-02	3.000000e+02		0.000000e+00	0.000000e+00	0.000000e+00	0.000000e+00	2.560000e+02	0.000000e+00
1.302500e-02	3.000000e+02		0.000000e+00	0.000000e+00	0.000000e+00	0.000000e+00	2.560000e+02	0.000000e+00
1.402500e-02	3.000000e+02		0.000000e+00	0.000000e+00	0.000000e+00	0.000000e+00	2.560000e+02	0.000000e+00
1.502500e-02	3.000000e+02		0.000000e+00	0.000000e+00	0.000000e+00	0.000000e+00	2.560000e+02	0.000000e+00
1.602500e-02	3.000000e+02		0.000000e+00	0.000000e+00	0.000000e+00	0.000000e+00	2.560000e+02	0.000000e+00
1.702500e-02	3.000000e+02		0.000000e+00	0.000000e+00	0.000000e+00	0.000000e+00	2.560000e+02	0.000000e+00
1.802500e-02	3.000000e+02		0.000000e+00	0.000000e+00	0.000000e+00	0.000000e+00	2.560000e+02	0.000000e+00
1.902500e-02	3.000000e+02		0.000000e+00	0.000000e+00	0.000000e+00	0.000000e+00	2.560000e+02	0.000000e+00
2.002500e-02	3.000000e+02		0.000000e+00	0.000000e+00	0.000000e+00	0.000000e+00	2.560000e+02	0.000000e+00
2.102500e-02	3.000000e+02		0.000000e+00	0.000000e+00	0.000000e+00	0.000000e+00	2.560000e+02	0.000000e+00
2.202500e-02	3.000000e+02		0.000000e+00	0.000000e+00	0.000000e+00	0.000000e+00	2.560000e+02	0.000000e+00
2.302500e-02	3.000000e+02		0.000000e+00	0.000000e+00	0.000000e+00	0.000000e+00	2.560000e+02	0.000000e+00
2.402500e-02	3.000000e+02		0.000000e+00	0.000000e+00	0.000000e+00	0.000000e+00	0.000000e+00	2.560000e+02
2.497500e-02	3.000000e+02		0.000000e+00	0.000000e+00	0.000000e+00	0.000000e+00	0.000000e+00	2.560000e+02

Total thickness [m] =	2.500000e-02
Total mass [kg/m^2] =	1.179400e+01

**************************************************************************

Time [s] =	1.100000e+01

BOUNDARY	AREA [m^2]   	HEAT FLOW IN [W]	MASS FLOW OUT [kg/s]:	PMMA	PMMA_glass	PMMA_res	PMMA_gas	KAOWOOL	KAOWOOL_back
TOP     	1.000000e+00	4.320773e+04		0.000000e+00	0.000000e+00	0.000000e+00	2.141510e-09	0.000000e+00	0.000000e+00
BOTTOM  	1.000000e+00	0.000000e+00		0.000000e+00	0.000000e+00	0.000000e+00	0.000000e+00	0.000000e+00	0.000000e+00

FROM TOP [m]	TEMPERATURE [K]   	CONCENTRATION [kg/m^3]:	PMMA	PMMA_glass	PMMA_res	PMMA_gas	KAOWOOL	KAOWOOL_back
2.500000e-05	4.687699e+02		6.261239e-01	1.154374e+03	1.472043e-07	4.283020e-08	0.000000e+00	0.000000e+00
1.025000e-03	3.840664e+02		4.164836e+02	7.385164e+02	1.005024e-12	4.733934e-08	0.000000e+00	0.000000e+00
2.025000e-03	3.373623e+02		1.155000e+03	0.000000e+00	0.000000e+00	3.947941e-08	0.000000e+00	0.000000e+00
3.025000e-03	3.139516e+02		1.155000e+03	0.000000e+00	0.000000e+00	3.371274e-08	0.000000e+00	0.000000e+00
4.025000e-03	3.043162e+02		1.155000e+03	0.000000e+00	0.000000e+00	2.990704e-08	0.000000e+00	0.000000e+00
5.025000e-03	3.011499e+02		1.155000e+03	0.000000e+00	0.000000e+00	2.775469e-08	0.000000e+00	0.000000e+00
6.025000e-03	3.004245e+02		0.000000e+00	0.000000e+00	0.000000e+00	1.707672e-29	2.560000e+02	0.000000e+00
7.025000e-03	3.000802e+02		0.000000e+00	0.000000e+00	0.000000e+00	0.000000e+00	2.560000e+02	0.000000e+00
8.025000e-03	3.000126e+02		0.000000e+00	0.000000e+00	0.000000e+00	0.000000e+00	2.560000e+02	0.000000e+00
9.025000e-03	3.000016e+02		0.000000e+00	0.000000e+00	0.000000e+00	0.000000e+00	2.560000e+02	0.000000e+00
1.002500e-02	3.000002e+02		0.000000e+00	0.000000e+00	0.000000e+00	0.000000e+00	2.560000e+02	0.000000e+00
1.102500e-02	3.000000e+02		0.000000e+00	0.000000e+00	0.000000e+00	0.000000e+00	2.560000e+02	0.000000e+00
1.202500e-02	3.000000e+02		0.000000e+00	0.000000e+00	0.000000e+00	0.000000e+00	2.560000e+02	0.000000e+00
1.302500e-02	3.000000e+02		0.000000e+00	0.000000e+00	0.000000e+00	0.000000e+00	2.560000e+02	0.000000e+00
1.402500e-02	3.000000e+02		0.000000e+00	0.000000e+00	0.000000e+00	0.000000e+00	2.560000e+02	0.000000e+00
1.502500e-02	3.000000e+02		0.000000e+00	0.000000e+00	0.000000e+00	0.000000e+00	2.560000e+02	0.000000e+00
1.602500e-02	3.000000e+02		0.000000e+00	0.000000e+00	0.000000e+00	0.000000e+00	2.560000e+02	0.000000e+00
1.702500e-02	3.000000e+02		0.000000e+00	0.000000e+00	0.000000e+00	0.000000e+00	2.560000e+02	0.000000e+00
1.802500e-02	3.000000e+02		0.000000e+00	0.000000e+00	0.000000e+00	0.000000e+00	2.560000e+02	0.000000e+00
1.902500e-02	3.000000e+02		0.000000e+00	0.000000e+00	0.000000e+00	0.000000e+00	2.560000e+02	0.000000e+00
[...]

Total thickness [m] =	1.909000e-02
Total mass [kg/m^2] =	4.967950e+00

**************************************************************************

Time [s] =	2.940000e+02

BOUNDARY	AREA [m^2]   	HEAT FLOW IN [W]	MASS FLOW OUT [kg/s]:	PMMA	PMMA_glass	PMMA_res	PMMA_gas	KAOWOOL	KAOWOOL_back
TOP     	1.000000e+00	5.867874e+03		0.000000e+00	0.000000e+00	0.000000e+00	6.208204e-45	0.000000e+00	0.000000e+00
BOTTOM  	1.000000e+00	0.000000e+00		0.000000e+00	0.000000e+00	0.000000e+00	0.000000e+00	0.000000e+00	0.000000e+00

FROM TOP [m]	TEMPERATURE [K]   	CONCENTRATION [kg/m^3]:	PMMA	PMMA_glass	PMMA_res	PMMA_gas	KAOWOOL	KAOWOOL_back
2.000009e-05	9.001027e+02		1.201915e-86	1.171728e-88	1.155000e+03	1.241641e-43	0.000000e+00	0.000000e+00
1.015000e-03	8.547375e+02		0.000000e+00	0.000000e+00	0.000000e+00	0.000000e+00	2.560000e+02	0.000000e+00
2.015000e-03	7.955693e+02		0.000000e+00	0.000000e+00	0.000000e+00	0.000000e+00	2.560000e+02	0.000000e+00
3.015000e-03	7.342029e+02		0.000000e+00	0.000000e+00	0.000000e+00	0.000000e+00	2.560000e+02	0.000000e+00
4.015000e-03	6.721093e+02		0.000000e+00	0.000000e+00	0.000000e+00	0.000000e+00	2.560000e+02	0.000000e+00
5.015000e-03	6.112876e+02		0.000000e+00	0.000000e+00	0.000000e+00	0.000000e+00	2.560000e+02	0.000000e+00
6.015000e-03	5.539758e+02		0.000000e+00	0.000000e+00	0.000000e+00	0.000000e+00	2.560000e+02	0.000000e+00
7.015000e-03	5.022539e+02		0.000000e+00	0.000000e+00	0.000000e+00	0.000000e+00	2.560000e+02	0.000000e+00
8.015000e-03	4.576009e+02		0.000000e+00	0.000000e+00	0.000000e+00	0.000000e+00	2.560000e+02	0.000000e+00
9.015000e-03	4.206268e+02		0.000000e+00	0.000000e+00	0.000000e+00	0.000000e+00	2.560000e+02	0.000000e+00
1.001500e-02	3.911019e+02		0.000000e+00	0.000000e+00	0.000000e+00	0.000000e+00	2.560000e+02	0.000000e+00
1.101500e-02	3.682103e+02		0.000000e+00	0.000000e+00	0.000000e+00	0.000000e+00	2.560000e+02	0.000000e+00
1.201500e-02	3.508641e+02		0.000000e+00	0.000000e+00	0.000000e+00	0.000000e+00	2.560000e+02	0.000000e+00
1.301500e-02	3.379538e+02		0.000000e+00	0.000000e+00	0.000000e+00	0.000000e+00	2.560000e+02	0.000000e+00
1.401500e-02	3.284956e+02		0.000000e+00	0.000000e+00	0.000000e+00	0.000000e+00	2.560000e+02	0.000000e+00
1.501500e-02	3.216927e+02		0.000000e+00	0.000000e+00	0.000000e+00	0.000000e+00	2.560000e+02	0.000000e+00
1.601500e-02	3.169401e+02		0.000000e+00	0.000000e+00	0.000000e+00	0.000000e+00	2.560000e+02	0.000000e+00
1.701500e-02	3.138055e+02		0.000000e+00	0.000000e+00	0.000000e+00	0.000000e+00	2.560000e+02	0.000000e+00
1.801500e-02	3.120018e+02		0.000000e+00	0.000000e+00	0.000000e+00	0.000000e+00	0.000000e+00	2.560000e+02
1.901500e-02	3.113641e+02		0.000000e+00	0.000000e+00	0.000000e+00	0.000000e+00	0.000000e+00	2.560000e+02
1.906500e-02	3.113614e+02		0.000000e+00	0.000000e+00	0.000000e+00	0.000000e+00	0.000000e+00	2.560000e+02

Total thickness [m] =	1.909000e-02
Total mass [kg/m^2] =	4.967950e+00

**************************************************************************

Time [s] =	2.950000e+02

BOUNDARY	AREA [m^2]   	HEAT FLOW IN [W]	MASS FLOW OUT [kg/s]:	PMMA	PMMA_glass	PMMA_res	PMMA_gas	KAOWOOL	KAOWOOL_back
TOP     	1.000000e+00	5.231206e+03		0.000000e+00	0.000000e+00	0.000000e+00	6.208204e-45	0.000000e+00	0.000000e+00
BOTTOM  	1.000000e+00	0.000000e+00		0.000000e+00	0.000000e+00	0.000000e+00	0.000000e+00	0.000000e+00	0.000000e+00

FROM TOP [m]	TEMPERATURE [K]   	CONCENTRATION [kg/m^3]:	PMMA	PMMA_glass	PMMA_res	PMMA_gas	KAOWOOL	KAOWOOL_back
2.000009e-05	8.997990e+02		4.421561e-87	4.317114e-89	1.155000e+03	1.241641e-43	0.000000e+00	0.000000e+00
1.015000e-03	8.552760e+02		0.000000e+00	0.000000e+00	0.000000e+00	0.000000e+00	2.560000e+02	0.000000e+00
2.015000e-03	7.964589e+02		0.000000e+00	0.000000e+00	0.000000e+00	0.000000e+00	2.560000e+02	0.000000e+00
3.015000e-03	7.354764e+02		0.000000e+00	0.000000e+00	0.000000e+00	0.000000e+00	2.560000e+02	0.000000e+00
4.015000e-03	6.737310e+02		0.000000e+00	0.000000e+00	0.000000e+00	0.000000e+00	2.560000e+02	0.000000e+00
5.015000e-03	6.131665e+02		0.000000e+00	0.000000e+00	0.000000e+00	0.000000e+00	2.560000e+02	0.000000e+00
6.015000e-03	5.559841e+02		0.000000e+00	0.000000e+00	0.000000e+00	0.000000e+00	2.560000e+02	0.000000e+00
7.015000e-03	5.042484e+02		0.000000e+00	0.000000e+00	0.000000e+00	0.000000e+00	2.560000e+02	0.000000e+00
8.015000e-03	4.594530e+02		0.000000e+00	0.000000e+00	0.000000e+00	0.000000e+00	2.560000e+02	0.000000e+00
9.015000e-03	4.222476e+02		0.000000e+00	0.000000e+00	0.000000e+00	0.000000e+00	2.560000e+02	0.000000e+00
1.001500e-02	3.924513e+02		0.000000e+00	0.000000e+00	0.000000e+00	0.000000e+00	2.560000e+02	0.000000e+00
1.101500e-02	3.692902e+02		0.000000e+00	0.000000e+00	0.000000e+00	0.000000e+00	2.560000e+02	0.000000e+00
1.201500e-02	3.517038e+02		0.000000e+00	0.000000e+00	0.000000e+00	0.000000e+00	2.560000e+02	0.000000e+00
1.301500e-02	3.385952e+02		0.000000e+00	0.000000e+00	0.000000e+00	0.000000e+00	2.560000e+02	0.000000e+00
1.401500e-02	3.289829e+02		0.000000e+00	0.000000e+00	0.000000e+00	0.000000e+00	2.560000e+02	0.000000e+00
1.501500e-02	3.220657e+02		0.000000e+00	0.000000e+00	0.000000e+00	0.000000e+00	2.560000e+02	0.000000e+00
1.601500e-02	3.172328e+02		0.000000e+00	0.000000e+00	0.000000e+00	0.000000e+00	2.560000e+02	0.000000e+00
1.701500e-02	3.140453e+02		0.000000e+00	0.000000e+00	0.000000e+00	0.000000e+00	2.560000e+02	0.000000e+00
1.801500e-02	3.122113e+02		0.000000e+00	0.000000e+00	0.000000e+00	0.000000e+00	0.000000e+00	2.560000e+02
1.901500e-02	3.115630e+02		0.000000e+00	0.000000e+00	0.000000e+00	0.000000e+00	0.000000e+00	2.560000e+02
1.906500e-02	3.115603e+02		0.000000e+00	0.000000e+00	0.000000e+00	0.000000e+00	0.000000e+00	2.560000e+02

Total thickness [m] =	1.909000e-02
Total mass [kg/m^2] =	4.967950e+00

**************************************************************************

Time [s] =	2.960000e+02

BOUNDARY	AREA [m^2]   	HEAT FLOW IN [W]	MASS FLOW OUT [kg/s]:	PMMA	PMMA_glass	PMMA_res	PMMA_gas	KAOWOOL	KAOWOOL_back
TOP     	1.000000e+00	5.093631e+03		0.000000e+00	0.000000e+00	0.000000e+00	6.208204e-45	0.000000e+00	0.000000e+00
BOTTOM  	1.000000e+00	0.000000e+00		0.000000e+00	0.000000e+00	0.000000e+00	0.000000e+00	0.000000e+00	0.000000e+00

FROM TOP [m]	TEMPERATURE [K]   	CONCENTRATION [kg/m^3]:	PMMA	PMMA_glass	PMMA_res	PMMA_gas	KAOWOOL	KAOWOOL_back
2.000009e-05	8.989849e+02		1.626588e-87	1.620757e-89	1.155000e+03	1.241641e-43	0.000000e+00	0.000000e+00
1.015000e-03	8.558245e+02		0.000000e+00	0.000000e+00	0.000000e+00	0.000000e+00	2.560000e+02	0.000000e+00
2.015000e-03	7.973396e+02		0.000000e+00	0.000000e+00	0.000000e+00	0.000000e+00	2.560000e+02	0.000000e+00
3.015000e-03	7.367260e+02		0.000000e+00	0.000000e+00	0.000000e+00	0.000000e+00	2.560000e+02	0.000000e+00
4.015000e-03	6.753217e+02		0.000000e+00	0.000000e+00	0.000000e+00	0.000000e+00	2.560000e+02	0.000000e+00
5.015000e-03	6.150147e+02		0.000000e+00	0.000000e+00	0.000000e+00	0.000000e+00	2.560000e+02	0.000000e+00
6.015000e-03	5.579660e+02		0.000000e+00	0.000000e+00	0.000000e+00	0.000000e+00	2.560000e+02	0.000000e+00
7.015000e-03	5.062239e+02		0.000000e+00	0.000000e+00	0.000000e+00	0.000000e+00	2.560000e+02	0.000000e+00
8.015000e-03	4.612950e+02		0.000000e+00	0.000000e+00	0.000000e+00	0.000000e+00	2.560000e+02	0.000000e+00
9.015000e-03	4.238667e+02		0.000000e+00	0.000000e+00	0.000000e+00	0.000000e+00	2.560000e+02	0.000000e+00
1.001500e-02	3.938051e+02		0.000000e+00	0.000000e+00	0.000000e+00	0.000000e+00	2.560000e+02	0.000000e+00
1.101500e-02	3.703780e+02		0.000000e+00	0.000000e+00	0.000000e+00	0.000000e+00	2.560000e+02	0.000000e+00
1.201500e-02	3.525525e+02		0.000000e+00	0.000000e+00	0.000000e+00	0.000000e+00	2.560000e+02	0.000000e+00
1.301500e-02	3.392453e+02		0.000000e+00	0.000000e+00	0.000000e+00	0.000000e+00	2.560000e+02	0.000000e+00
1.401500e-02	3.294777e+02		0.000000e+00	0.000000e+00	0.000000e+00	0.000000e+00	2.560000e+02	0.000000e+00
1.501500e-02	3.224451e+02		0.000000e+00	0.000000e+00	0.000000e+00	0.000000e+00	2.560000e+02	0.000000e+00
1.601500e-02	3.175304e+02		0.000000e+00	0.000000e+00	0.000000e+00	0.000000e+00	2.560000e+02	0.000000e+00
1.701500e-02	3.142891e+02		0.000000e+00	0.000000e+00	0.000000e+00	0.000000e+00	2.560000e+02	0.000000e+00
1.801500e-02	3.124244e+02		0.000000e+00	0.000000e+00	0.000000e+00	0.000000e+00	0.000000e+00	2.560000e+02
1.901500e-02	3.117653e+02		0.000000e+00	0.000000e+00	0.000000e+00	0.000000e+00	0.000000e+00	2.560000e+02
1.906500e-02	3.117625e+02		0.000000e+00	0.000000e+00	0.000000e+00	0.000000e+00	0.000000e+00	2.560000e+02

Total thickness [m] =	1.909000e-02
Total mass [kg/m^2] =	4.967950e+00

**************************************************************************

Time [s] =	2.970000e+02

BOUNDARY	AREA [m^2]   	HEAT FLOW IN [W]	MASS FLOW OUT [kg/s]:	PMMA	PMMA_glass	PMMA_res	PMMA_gas	KAOWOOL	KAOWOOL_back
TOP     	1.000000e+00	5.069310e+03		0.000000e+00	0.000000e+00	0.000000e+00	6.208204e-45	0.000000e+00	0.000000e+00
BOTTOM  	1.000000e+00	0.000000e+00		0.000000e+00	0.000000e+00	0.000000e+00	0.000000e+00	0.000000e+00	0.000000e+00

FROM TOP [m]	TEMPERATURE [K]   	CONCENTRATION [kg/m^3]:	PMMA	PMMA_glass	PMMA_res	PMMA_gas	KAOWOOL	KAOWOOL_back
2.000009e-05	8.991041e+02		5.983833e-88	5.942336e-90	1.155000e+03	1.241641e-43	0.000000e+00	0.000000e+00
1.015000e-03	8.563335e+02		0.000000e+00	0.000000e+00	0.000000e+00	0.000000e+00	2.560000e+02	0.000000e+00
2.015000e-03	7.982410e+02		0.000000e+00	0.000000e+00	0.000000e+00	0.000000e+00	2.560000e+02	0.000000e+00
3.015000e-03	7.379556e+02		0.000000e+00	0.000000e+00	0.000000e+00	0.000000e+00	2.560000e+02	0.000000e+00
4.015000e-03	6.768835e+02		0.000000e+00	0.000000e+00	0.000000e+00	0.000000e+00	2.560000e+02	0.000000e+00
5.015000e-03	6.168329e+02		0.000000e+00	0.000000e+00	0.000000e+00	0.000000e+00	2.560000e+02	0.000000e+00
6.015000e-03	5.599217e+02		0.000000e+00	0.000000e+00	0.000000e+00	0.000000e+00	2.560000e+02	0.000000e+00
7.015000e-03	5.081805e+02		0.000000e+00	0.000000e+00	0.000000e+00	0.000000e+00	2.560000e+02	0.000000e+00
8.015000e-03	4.631267e+02		0.000000e+00	0.000000e+00	0.000000e+00	0.000000e+00	2.560000e+02	0.000000e+00
9.015000e-03	4.254835e+02		0.000000e+00	0.000000e+00	0.000000e+00	0.000000e+00	2.560000e+02	0.000000e+00
1.001500e-02	3.951627e+02		0.000000e+00	0.000000e+00	0.000000e+00	0.000000e+00	2.560000e+02	0.000000e+00
1.101500e-02	3.714731e+02		0.000000e+00	0.000000e+00	0.000000e+00	0.000000e+00	2.560000e+02	0.000000e+00
1.201500e-02	3.534099e+02		0.000000e+00	0.000000e+00	0.000000e+00	0.000000e+00	2.560000e+02	0.000000e+00
1.301500e-02	3.399040e+02		0.000000e+00	0.000000e+00	0.000000e+00	0.000000e+00	2.560000e+02	0.000000e+00
1.401500e-02	3.299801e+02		0.000000e+00	0.000000e+00	0.000000e+00	0.000000e+00	2.560000e+02	0.000000e+00
1.501500e-02	3.228307e+02		0.000000e+00	0.000000e+00	0.000000e+00	0.000000e+00	2.560000e+02	0.000000e+00
1.601500e-02	3.178332e+02		0.000000e+00	0.000000e+00	0.000000e+00	0.000000e+00	2.560000e+02	0.000000e+00
1.701500e-02	3.145372e+02		0.000000e+00	0.000000e+00	0.000000e+00	0.000000e+00	2.560000e+02	0.000000e+00
1.801500e-02	3.126411e+02		0.000000e+00	0.000000e+00	0.000000e+00	0.000000e+00	0.000000e+00	2.560000e+02
1.901500e-02	3.119709e+02		0.000000e+00	0.000000e+00	0.000000e+00	0.000000e+00	0.000000e+00	2.560000e+02
1.906500e-02	3.119681e+02		0.000000e+00	0.000000e+00	0.000000e+00	0.000000e+00	0.000000e+00	2.560000e+02

Total thickness [m] =	1.909000e-02
Total mass [kg/m^2] =	4.967950e+00

**************************************************************************

Time [s] =	2.980000e+02

BOUNDARY	AREA [m^2]   	HEAT FLOW IN [W]	MASS FLOW OUT [kg/s]:	PMMA	PMMA_glass	PMMA_res	PMMA_gas	KAOWOOL	KAOWOOL_back
TOP     	1.000000e+00	6.123969e+03		0.000000e+00	0.000000e+00	0.000000e+00	6.208204e-45	0.000000e+00	0.000000e+00
BOTTOM  	1.000000e+00	0.000000e+00		0.000000e+00	0.000000e+00	0.000000e+00	0.000000e+00	0.000000e+00	0.000000e+00

FROM TOP [m]	TEMPERATURE [K]   	CONCENTRATION [kg/m^3]:	PMMA	PMMA_glass	PMMA_res	PMMA_gas	KAOWOOL	KAOWOOL_back
2.000009e-05	9.002863e+02		2.201311e-88	2.138028e-90	1.155000e+03	1.241641e-43	0.000000e+00	0.000000e+00
1.015000e-03	8.568679e+02		0.000000e+00	0.000000e+00	0.000000e+00	0.000000e+00	2.560000e+02	0.000000e+00
2.015000e-03	7.990937e+02		0.000000e+00	0.000000e+00	0.000000e+00	0.000000e+00	2.560000e+02	0.000000e+00
3.015000e-03	7.391709e+02		0.000000e+00	0.000000e+00	0.000000e+00	0.000000e+00	2.560000e+02	0.000000e+00
4.015000e-03	6.784186e+02		0.000000e+00	0.000000e+00	0.000000e+00	0.000000e+00	2.560000e+02	0.000000e+00
5.015000e-03	6.186219e+02		0.000000e+00	0.000000e+00	0.000000e+00	0.000000e+00	2.560000e+02	0.000000e+00
6.015000e-03	5.618517e+02		0.000000e+00	0.000000e+00	0.000000e+00	0.000000e+00	2.560000e+02	0.000000e+00
7.015000e-03	5.101181e+02		0.000000e+00	0.000000e+00	0.000000e+00	0.000000e+00	2.560000e+02	0.000000e+00
8.015000e-03	4.649478e+02		0.000000e+00	0.000000e+00	0.000000e+00	0.000000e+00	2.560000e+02	0.000000e+00
9.015000e-03	4.270976e+02		0.000000e+00	0.000000e+00	0.000000e+00	0.000000e+00	2.560000e+02	0.000000e+00
1.001500e-02	3.965237e+02		0.000000e+00	0.000000e+00	0.000000e+00	0.000000e+00	2.560000e+02	0.000000e+00
1.101500e-02	3.725753e+02		0.000000e+00	0.000000e+00	0.000000e+00	0.000000e+00	2.560000e+02	0.000000e+00
1.201500e-02	3.542759e+02		0.000000e+00	0.000000e+00	0.000000e+00	0.000000e+00	2.560000e+02	0.000000e+00
1.301500e-02	3.405712e+02		0.000000e+00	0.000000e+00	0.000000e+00	0.000000e+00	2.560000e+02	0.000000e+00
1.401500e-02	3.304900e+02		0.000000e+00	0.000000e+00	0.000000e+00	0.000000e+00	2.560000e+02	0.000000e+00
1.501500e-02	3.232226e+02		0.000000e+00	0.000000e+00	0.000000e+00	0.000000e+00	2.560000e+02	0.000000e+00
1.601500e-02	3.181412e+02		0.000000e+00	0.000000e+00	0.000000e+00	0.000000e+00	2.560000e+02	0.000000e+00
1.701500e-02	3.147895e+02		0.000000e+00	0.000000e+00	0.000000e+00	0.000000e+00	2.560000e+02	0.000000e+00
1.801500e-02	3.128615e+02		0.000000e+00	0.000000e+00	0.000000e+00	0.000000e+00	0.000000e+00	2.560000e+02
1.901500e-02	3.121801e+02		0.000000e+00	0.000000e+00	0.000000e+00	0.000000e+00	0.000000e+00	2.560000e+02
1.906500e-02	3.121771e+02		0.000000e+00	0.000000e+00	0.000000e+00	0.000000e+00	0.000000e+00	2.560000e+02

Total thickness [m] =	1.909000e-02
Total mass [kg/m^2] =	4.967950e+00

**************************************************************************

Time [s] =	2.990000e+02

BOUNDARY	AREA [m^2]   	HEAT FLOW IN [W]	MASS FLOW OUT [kg/s]:	PMMA	PMMA_glass	PMMA_res	PMMA_gas	KAOWOOL	KAOWOOL_back
TOP     	1.000000e+00	5.116161e+03		0.000000e+00	0.000000e+00	0.000000e+00	6.208204e-45	0.000000e+00	0.000000e+00
BOTTOM  	1.000000e+00	0.000000e+00		0.000000e+00	0.000000e+00	0.000000e+00	0.000000e+00	0.000000e+00	0.000000e+00

FROM TOP [m]	TEMPERATURE [K]   	CONCENTRATION [kg/m^3]:	PMMA	PMMA_glass	PMMA_res	PMMA_gas	KAOWOOL	KAOWOOL_back
2.000009e-05	9.000995e+02		8.098102e-89	7.846681e-91	1.155000e+03	1.241641e-43	0.000000e+00	0.000000e+00
1.015000e-03	8.572032e+02		0.000000e+00	0.000000e+00	0.000000e+00	0.000000e+00	2.560000e+02	0.000000e+00
2.015000e-03	7.999098e+02		0.000000e+00	0.000000e+00	0.000000e+00	0.000000e+00	2.560000e+02	0.000000e+00
3.015000e-03	7.403613e+02		0.000000e+00	0.000000e+00	0.000000e+00	0.000000e+00	2.560000e+02	0.000000e+00
4.015000e-03	6.799289e+02		0.000000e+00	0.000000e+00	0.000000e+00	0.000000e+00	2.560000e+02	0.000000e+00
5.015000e-03	6.203830e+02		0.000000e+00	0.000000e+00	0.000000e+00	0.000000e+00	2.560000e+02	0.000000e+00
6.015000e-03	5.637564e+02		0.000000e+00	0.000000e+00	0.000000e+00	0.000000e+00	2.560000e+02	0.000000e+00
7.015000e-03	5.120368e+02		0.000000e+00	0.000000e+00	0.000000e+00	0.000000e+00	2.560000e+02	0.000000e+00
8.015000e-03	4.667581e+02		0.000000e+00	0.000000e+00	0.000000e+00	0.000000e+00	2.560000e+02	0.000000e+00
9.015000e-03	4.287087e+02		0.000000e+00	0.000000e+00	0.000000e+00	0.000000e+00	2.560000e+02	0.000000e+00
1.001500e-02	3.978876e+02		0.000000e+00	0.000000e+00	0.000000e+00	0.000000e+00	2.560000e+02	0.000000e+00
1.101500e-02	3.736841e+02		0.000000e+00	0.000000e+00	0.000000e+00	0.000000e+00	2.560000e+02	0.000000e+00
1.201500e-02	3.551502e+02		0.000000e+00	0.000000e+00	0.000000e+00	0.000000e+00	2.560000e+02	0.000000e+00
1.301500e-02	3.412467e+02		0.000000e+00	0.000000e+00	0.000000e+00	0.000000e+00	2.560000e+02	0.000000e+00
1.401500e-02	3.310075e+02		0.000000e+00	0.000000e+00	0.000000e+00	0.000000e+00	2.560000e+02	0.000000e+00
1.501500e-02	3.236209e+02		0.000000e+00	0.000000e+00	0.000000e+00	0.000000e+00	2.560000e+02	0.000000e+00
1.601500e-02	3.184543e+02		0.000000e+00	0.000000e+00	0.000000e+00	0.000000e+00	2.560000e+02	0.000000e+00
1.701500e-02	3.150461e+02		0.000000e+00	0.000000e+00	0.000000e+00	0.000000e+00	2.560000e+02	0.000000e+00
1.801500e-02	3.130856e+02		0.000000e+00	0.000000e+00	0.000000e+00	0.000000e+00	0.000000e+00	2.560000e+02
1.901500e-02	3.123927e+02		0.000000e+00	0.000000e+00	0.000000e+00	0.000000e+00	0.000000e+00	2.560000e+02
1.906500e-02	3.123897e+02		0.000000e+00	0.000000e+00	0.000000e+00	0.000000e+00	0.000000e+00	2.560000e+02

Total thickness [m] =	1.909000e-02
Total mass [kg/m^2] =	4.967950e+00

**************************************************************************

Time [s] =	3.000000e+02

BOUNDARY	AREA [m^2]   	HEAT FLOW IN [W]	MASS FLOW OUT [kg/s]:	PMMA	PMMA_glass	PMMA_res	PMMA_gas	KAOWOOL	KAOWOOL_back
TOP     	1.000000e+00	4.947418e+03		0.000000e+00	0.000000e+00	0.000000e+00	6.208204e-45	0.000000e+00	0.000000e+00
BOTTOM  	1.000000e+00	0.000000e+00		0.000000e+00	0.000000e+00	0.000000e+00	0.000000e+00	0.000000e+00	0.000000e+00

FROM TOP [m]	TEMPERATURE [K]   	CONCENTRATION [kg/m^3]:	PMMA	PMMA_glass	PMMA_res	PMMA_gas	KAOWOOL	KAOWOOL_back
2.000009e-05	8.996155e+02		2.979100e-89	2.917761e-91	1.155000e+03	1.241641e-43	0.000000e+00	0.000000e+00
1.015000e-03	8.577268e+02		0.000000e+00	0.000000e+00	0.000000e+00	0.000000e+00	2.560000e+02	0.000000e+00
2.015000e-03	8.007145e+02		0.000000e+00	0.000000e+00	0.000000e+00	0.000000e+00	2.560000e+02	0.000000e+00
3.015000e-03	7.415220e+02		0.000000e+00	0.000000e+00	0.000000e+00	0.000000e+00	2.560000e+02	0.000000e+00
4.015000e-03	6.814133e+02		0.000000e+00	0.000000e+00	0.000000e+00	0.000000e+00	2.560000e+02	0.000000e+00
5.015000e-03	6.221171e+02		0.000000e+00	0.000000e+00	0.000000e+00	0.000000e+00	2.560000e+02	0.000000e+00
6.015000e-03	5.656362e+02		0.000000e+00	0.000000e+00	0.000000e+00	0.000000e+00	2.560000e+02	0.000000e+00
7.015000e-03	5.139367e+02		0.000000e+00	0.000000e+00	0.000000e+00	0.000000e+00	2.560000e+02	0.000000e+00
8.015000e-03	4.685574e+02		0.000000e+00	0.000000e+00	0.000000e+00	0.000000e+00	2.560000e+02	0.000000e+00
9.015000e-03	4.303163e+02		0.000000e+00	0.000000e+00	0.000000e+00	0.000000e+00	2.560000e+02	0.000000e+00
1.001500e-02	3.992541e+02		0.000000e+00	0.000000e+00	0.000000e+00	0.000000e+00	2.560000e+02	0.000000e+00
1.101500e-02	3.747993e+02		0.000000e+00	0.000000e+00	0.000000e+00	0.000000e+00	2.560000e+02	0.000000e+00
1.201500e-02	3.560325e+02		0.000000e+00	0.000000e+00	0.000000e+00	0.000000e+00	2.560000e+02	0.000000e+00
1.301500e-02	3.419304e+02		0.000000e+00	0.000000e+00	0.000000e+00	0.000000e+00	2.560000e+02	0.000000e+00
1.401500e-02	3.315324e+02		0.000000e+00	0.000000e+00	0.000000e+00	0.000000e+00	2.560000e+02	0.000000e+00
1.501500e-02	3.240255e+02		0.000000e+00	0.000000e+00	0.000000e+00	0.000000e+00	2.560000e+02	0.000000e+00
1.601500e-02	3.187727e+02		0.000000e+00	0.000000e+00	0.000000e+00	0.000000e+00	2.560000e+02	0.000000e+00
1.701500e-02	3.153071e+02		0.000000e+00	0.000000e+00	0.000000e+00	0.000000e+00	2.560000e+02	0.000000e+00
1.801500e-02	3.133135e+02		0.000000e+00	0.000000e+00	0.000000e+00	0.000000e+00	0.000000e+00	2.560000e+02
1.901500e-02	3.126090e+02		0.000000e+00	0.000000e+00	0.000000e+00	0.000000e+00	0.000000e+00	2.560000e+02
1.906500e-02	3.126059e+02		0.000000e+00	0.000000e+00	0.000000e+00	0.000000e+00	0.000000e+00	2.560000e+02

Total thickness [m] =	1.909000e-02
Total mass [kg/m^2] =	4.967950e+00

Calculations are complete.
Total runtime [min]:  1.233333e+00